File: example-usage/Ramanfit/Raman Sample 532nm 2L-Graphene.txt
#Wave		#Intensity
2827.18	1508.17
2825.82	1524.68
2824.46	1577.59
2823.1	1601.13
2821.73	1545.82
2820.37	1602.36
2819	1576.39
2817.64	1610.91
2816.28	1572.12
2814.91	1548.01
2813.55	1536.72
2812.18	1541.92
2810.82	1614.86
2809.45	1517.53
2808.08	1563
2806.72	1582.83
2805.35	1602.65
2803.99	1584.05
2802.62	1638.61
2801.25	1579.79
2799.88	1557.55
2798.52	1584.66
2797.15	1535.02
2795.78	1551.17
2794.41	1592.89
2793.04	1588.93
2791.67	1619.66
2790.3	1555.45
2788.93	1518.65
2787.56	1607.78
2786.19	1578.27
2784.82	1567.02
2783.45	1637.85
2782.08	1593.77
2780.71	1566.12
2779.34	1593.16
2777.97	1625.66
2776.59	1659.96
2775.22	1586.77
2773.85	1626.53
2772.48	1637.15
2771.1	1627.73
2769.73	1640.15
2768.36	1603.43
2766.98	1581.29
2765.61	1582.8
2764.23	1698.91
2762.86	1658.57
2761.49	1661.88
2760.11	1645.2
2758.73	1672.14
2757.36	1631.84
2755.98	1604.27
2754.61	1631.2
2753.23	1614.54
2751.85	1661.44
2750.48	1708.32
2749.1	1669.87
2747.72	1725.8
2746.34	1652.89
2744.96	1781.36
2743.59	1733.86
2742.21	1693.62
2740.83	1676.98
2739.45	1676.65
2738.07	1815.86
2736.69	1737.6
2735.31	1724.58
2733.93	1807.55
2732.55	1761.93
2731.17	1788.74
2729.79	1790.2
2728.41	1869.48
2727.02	1910.73
2725.64	1834.38
2724.26	1808.69
2722.88	1811.96
2721.5	1804.37
2720.11	1912.47
2718.73	1903.06
2717.34	1933.4
2715.96	1913.15
2714.58	1867.62
2713.19	1901.56
2711.81	1980.63
2710.42	1902.62
2709.04	1947.37
2707.65	1863.98
2706.27	1915.93
2704.88	1942.61
2703.49	1951.24
2702.11	1934.63
2700.72	1943.26
2699.33	1892.41
2697.95	1973.13
2696.56	1978.14
2695.17	1938.12
2693.78	1946.74
2692.39	1928.35
2691	1918.97
2689.62	1916.79
2688.23	1905.62
2686.84	1917.83
2685.45	1883.28
2684.06	1897.29
2682.67	1920.29
2681.28	1860.58
2679.88	1919.53
2678.49	1899.38
2677.1	1891.81
2675.71	1832.16
2674.32	1862.33
2672.93	1885.3
2671.53	1807.73
2670.14	1805.58
2668.75	1785.48
2667.35	1747.45
2665.96	1808.09
2664.57	1831.04
2663.17	1789.44
2661.78	1826.73
2660.38	1810.23
2658.99	1777.62
2657.59	1703.81
2656.2	1726.75
2654.8	1810.58
2653.4	1812.01
2652.01	1799.12
2650.61	1791.6
2649.21	1764.4
2647.82	1774.78
2646.42	1713.61
2645.02	1811.63
2643.62	1796.96
2642.22	1741.18
2640.83	1717.6
2639.43	1806.6
2638.03	1800.88
2636.63	1786.23
2635.23	1798.37
2633.83	1776.58
2632.43	1792.29
2631.03	1772.3
2629.62	1764.81
2628.22	1801.92
2626.82	1701.67
2625.42	1715.59
2624.02	1797.27
2622.62	1656.08
2621.21	1800.11
2619.81	1685.7
2618.41	1794.04
2617	1770.52
2615.6	1766.61
2614.2	1714.62
2612.79	1744.53
2611.39	1726.38
2609.98	1742.05
2608.58	1784.4
2607.17	1686.21
2605.76	1829.91
2604.36	1749.53
2602.95	1765.18
2601.55	1747.05
2600.14	1718.27
2598.73	1797.86
2597.32	1767.31
2595.92	1754.52
2594.51	1796.77
2593.1	1783.98
2591.69	1753.45
2590.28	1769.07
2588.87	1813.06
2587.46	1718.69
2586.05	1714.79
2584.64	1826.14
2583.23	1758.41
2581.82	1742.11
2580.41	1793.14
2579	1697.11
2577.59	1826.06
2576.18	1777.88
2574.77	1809.39
2573.35	1782.47
2571.94	1831.66
2570.53	1834.82
2569.11	1777.84
2567.7	1782.79
2566.29	1791.27
2564.87	1720.19
2563.46	1825.89
2562.04	1832.59
2560.63	1818.08
2559.21	1743.52
2557.8	1838.53
2556.38	1838.16
2554.97	1836.02
2553.55	1745.62
2552.13	1807.03
2550.72	1817.25
2549.3	1781.6
2547.88	1885.29
2546.46	1823.19
2545.04	1861.6
2543.63	1864.75
2542.21	1811.5
2540.79	1860.46
2539.37	1780.82
2537.95	1872.03
2536.53	1834.67
2535.11	1853.66
2533.69	1807.52
2532.27	1847.62
2530.85	1847.24
2529.43	1813.44
2528	1892.21
2526.58	1803.91
2525.16	1854.52
2523.74	1899.83
2522.32	1860.79
2520.89	1832.3
2519.47	1816.11
2518.04	1843.84
2516.62	1878.57
2515.2	1885.21
2513.77	1854.99
2512.35	1912.51
2510.92	1840.19
2509.5	1825.78
2508.07	1821.9
2506.65	1884.64
2505.22	1878.99
2503.79	1843.56
2502.37	1913.26
2500.94	1827.03
2499.51	1914.22
2498.08	1824.53
2496.66	1920.44
2495.23	1914.79
2493.8	1868.9
2492.37	1910.5
2490.94	1957.34
2489.51	1867.74
2488.08	1926.81
2486.65	1943.89
2485.22	1885.81
2483.79	1827.76
2482.36	1949.67
2480.93	1910.84
2479.5	1913.94
2478.06	1967.67
2476.63	1928.86
2475.2	1935.44
2473.77	1971.69
2472.33	1877.07
2470.9	1918.55
2469.47	1904.2
2468.03	1945.65
2466.6	1994.05
2465.16	1983.18
2463.73	1906.11
2462.29	1933.58
2460.86	1903.58
2459.42	1957.16
2457.99	1988.09
2456.55	1921.54
2455.11	1948.98
2453.68	2033.83
2452.24	2016.01
2450.8	2045.16
2449.36	1928.24
2447.92	1967.82
2446.49	1974.36
2445.05	1961.79
2443.61	1954.43
2442.17	1881.08
2440.73	1986.62
2439.29	1956.69
2437.85	1963.23
2436.41	1957.61
2434.97	1998.85
2433.53	1909.96
2432.09	1968.53
2430.64	1947.31
2429.2	1948.64
2427.76	1989.83
2426.32	2003.28
2424.87	1975.14
2423.43	1927.96
2421.99	1958.73
2420.54	2032.78
2419.1	1959.65
2417.66	1978.28
2416.21	1950.18
2414.77	1984.37
2413.32	1978.77
2411.87	2011.21
2410.43	1964.11
2408.98	1925.67
2407.54	1952.92
2406.09	1957.7
2404.64	1957.29
2403.19	2024.24
2401.75	1972.01
2400.3	2030.3
2398.85	2028.15
2397.4	1998.39
2395.95	1975.54
2394.5	1987.2
2393.05	1938.5
2391.6	2008.79
2390.15	1980.78
2388.7	1935.56
2387.25	1976.51
2385.8	1948.53
2384.35	1977.4
2382.9	1956.32
2381.45	2042
2379.99	2069.11
2378.54	1913.79
2377.09	2004.58
2375.63	2023.08
2374.18	1964.18
2372.73	1979.24
2371.27	1989.14
2369.82	1978.41
2368.36	2046.74
2366.91	1975.87
2365.45	1958.27
2364	1938.97
2362.54	1960.88
2361.09	1991.37
2359.63	2025.28
2358.17	2031.72
2356.71	1978.11
2355.26	1972.55
2353.8	2030.44
2352.34	2007.72
2350.88	1938.73
2349.42	1996.59
2347.96	1985.89
2346.51	2000.89
2345.05	1974.78
2343.59	2022.31
2342.13	2080.09
2340.67	2016.32
2339.21	2007.34
2337.74	2027.45
2336.28	2033.86
2334.82	2024.88
2333.36	2039.84
2331.9	1993.26
2330.43	2293.64
2328.97	2409.36
2327.51	2268.76
2326.04	2198.25
2324.58	2093.62
2323.12	2096.59
2321.65	2034.7
2320.19	2020.61
2318.72	2059.43
2317.25	2057.29
2315.79	2039.8
2314.32	2054.71
2312.86	2049.16
2311.39	2082.82
2309.92	2038.07
2308.46	2013.79
2306.99	2049.13
2305.52	1987.39
2304.05	2027.84
2302.58	1981.45
2301.11	1994.64
2299.64	2074.19
2298.17	2058.44
2296.71	2081.82
2295.23	2025.26
2293.76	1989.13
2292.29	2039.7
2290.82	2035.87
2289.35	2081.31
2287.88	2009.52
2286.41	2024.38
2284.93	2046.03
2283.46	1986.18
2281.99	2041.76
2280.52	2049.82
2279.04	2068.04
2277.57	2067.6
2276.09	2070.55
2274.62	2029.42
2273.14	2113.75
2271.67	1998.06
2270.19	1992.55
2268.72	2137.81
2267.24	2095.01
2265.77	2038.69
2264.29	2127.98
2262.81	2020.9
2261.33	2056
2259.86	2065.72
2258.38	2112.64
2256.9	2090.21
2255.42	2116.81
2253.94	2158.62
2252.46	2148.02
2250.98	2150.94
2249.5	2152.17
2248.02	2116.25
2246.54	2078.65
2245.06	2127.16
2243.58	2121.65
2242.1	2168.44
2240.62	2159.55
2239.13	2179.33
2237.65	2138.39
2236.17	2158.16
2234.69	2157.7
2233.2	2121.85
2231.72	2185.43
2230.24	2041.77
2228.75	2177.76
2227.27	2219.39
2225.78	2193.66
2224.3	2105.67
2222.81	2120.36
2221.33	2151.88
2219.84	2121.14
2218.35	2176.18
2216.87	2217.75
2215.38	2143.31
2213.89	2260.5
2212.4	2273.46
2210.91	2188.98
2209.43	2181.79
2207.94	2199.8
2206.45	2145.6
2204.96	2222.35
2203.47	2250.41
2201.98	2196.24
2200.49	2180.67
2199	2205.36
2197.51	2198.18
2196.02	2107.18
2194.53	2264.28
2193.03	2178.33
2191.54	2243.2
2190.05	2219.27
2188.55	2238.89
2187.06	2228.37
2185.57	2294.84
2184.07	2245.82
2182.58	2233.62
2181.09	2248.2
2179.59	2232.67
2178.1	2197.07
2176.6	2216.66
2175.1	2189.44
2173.61	2264.17
2172.11	2228.6
2170.62	2289.92
2169.12	2272.73
2167.62	2238.85
2166.12	2238.37
2164.62	2296.3
2163.12	2194.03
2161.63	2288.64
2160.13	2276.47
2158.63	2280.98
2157.13	2248.82
2155.63	2228.33
2154.13	2326.17
2152.63	2290.68
2151.13	2273.53
2149.62	2256.39
2148.12	2262.56
2146.62	2287.04
2145.12	2314.84
2143.62	2289.39
2142.12	2310.52
2140.61	2305.03
2139.11	2249.66
2137.6	2333.96
2136.1	2373.35
2134.6	2391.11
2133.09	2344.08
2131.59	2268.83
2130.08	2376.28
2128.57	2252.91
2127.07	2300.56
2125.56	2256.92
2124.05	2370.91
2122.55	2305.71
2121.04	2354.96
2119.53	2304.71
2118.02	2398.7
2116.52	2378.3
2115.01	2333.04
2113.5	2395.49
2111.99	2341.97
2110.48	2336.5
2108.97	2425.39
2107.46	2333.83
2105.95	2331.67
2104.44	2314.63
2102.93	2383.6
2101.41	2376.47
2099.9	2375.95
2098.39	2429.99
2096.88	2333.61
2095.36	2410.76
2093.85	2413.54
2092.34	2403.11
2090.82	2376.17
2089.31	2430.14
2087.79	2408.15
2086.28	2346.57
2084.76	2354.32
2083.25	2393.39
2081.73	2394.52
2080.21	2394
2078.7	2348.98
2077.18	2384.73
2075.66	2502.84
2074.15	2438.05
2072.63	2449.05
2071.11	2384.3
2069.59	2411.77
2068.07	2379.98
2066.55	2443.64
2065.03	2464.49
2063.51	2398.17
2061.99	2394.36
2060.47	2397.12
2058.95	2472.22
2057.43	2456.89
2055.91	2462.93
2054.39	2441.04
2052.87	2415.87
2051.34	2456.4
2049.82	2528.09
2048.3	2512.77
2046.77	2464.64
2045.25	2459.18
2043.72	2420.92
2042.2	2507.31
2040.68	2492
2039.15	2516.05
2037.62	2577.77
2036.1	2426.48
2034.57	2473.45
2033.05	2482.74
2031.52	2429.81
2029.99	2532.41
2028.46	2472.94
2026.94	2433.13
2025.41	2417.87
2023.88	2494.22
2022.35	2452.79
2020.82	2496.4
2019.29	2472.97
2017.76	2480.6
2016.23	2488.23
2014.7	2515.46
2013.17	2508.38
2011.64	2514.36
2010.11	2526.87
2008.58	2562.22
2007.04	2542.08
2005.51	2502.38
2003.98	2431.7
2002.45	2470.3
2000.91	2512.15
1999.38	2451.3
1997.84	2462.17
1996.31	2580.56
1994.78	2531.13
1993.24	2551.74
1991.7	2513.74
1990.17	2483.89
1988.63	2579.36
1987.1	2578.8
1985.56	2542.45
1984.02	2543.52
1982.48	2516.95
1980.95	2513.15
1979.41	2551.6
1977.87	2617.66
1976.33	2545.61
1974.79	2514.19
1973.25	2550.99
1971.71	2556.92
1970.17	2579.09
1968.63	2563.92
1967.09	2540.64
1965.55	2530.35
1964.01	2589.8
1962.46	2513.03
1960.92	2544.9
1959.38	2529.76
1957.84	2598.87
1956.29	2601.54
1954.75	2531.33
1953.21	2577.73
1951.66	2599.83
1950.12	2566.89
1948.57	2619.72
1947.03	2473.55
1945.48	2540.94
1943.93	2572.72
1942.39	2551.14
1940.84	2612
1939.29	2643.74
1937.75	2576.92
1936.2	2608.66
1934.65	2533.8
1933.1	2570.38
1931.55	2606.94
1930	2628.96
1928.46	2591.27
1926.91	2650.39
1925.36	2536.91
1923.8	2616.97
1922.25	2527.73
1920.7	2598.09
1919.15	2647.47
1917.6	2595.34
1916.05	2602.82
1914.49	2586.14
1912.94	2592.01
1911.39	2607.54
1909.84	2700.3
1908.28	2627.3
1906.73	2652.46
1905.17	2616.49
1903.62	2603.05
1902.06	2676.42
1900.51	2683.87
1898.95	2585.26
1897.39	2689.11
1895.84	2552
1894.28	2625.3
1892.72	2595.83
1891.17	2617.72
1889.61	2609.12
1888.05	2603.73
1886.49	2684.96
1884.93	2724.45
1883.37	2703.01
1881.81	2583.8
1880.25	2680.98
1878.69	2656.36
1877.13	2705.42
1875.57	2690.41
1874.01	2646.59
1872.45	2652.41
1870.88	2583
1869.32	2713.63
1867.76	2754.62
1866.2	2664.45
1864.63	2740.61
1863.07	2682.46
1861.51	2654.69
1859.94	2674.88
1858.38	2719.01
1856.81	2716.81
1855.24	2709.82
1853.68	2637.38
1852.11	2665.53
1850.55	2684.09
1848.98	2693.06
1847.41	2714.8
1845.84	2699.84
1844.28	2641.85
1842.71	2642.85
1841.14	2761.79
1839.57	2765.96
1838	2731.89
1836.43	2790.21
1834.86	2759.34
1833.29	2715.75
1831.72	2711.96
1830.15	2733.63
1828.58	2783.93
1827	2687.88
1825.43	2669.8
1823.86	2786.84
1822.29	2746.49
1820.71	2690.26
1819.14	2710.32
1817.57	2835.19
1815.99	2788.51
1814.42	2695.81
1812.84	2736.47
1811.27	2707.3
1809.69	2709.87
1808.12	2772.72
1806.54	2756.24
1804.96	2774.65
1803.38	2745.5
1801.81	2778.17
1800.23	2711
1798.65	2824.45
1797.07	2800.07
1795.49	2751.94
1793.91	2778.24
1792.33	2804.53
1790.76	2829.22
1789.17	2749.49
1787.59	2807.39
1786.01	2851.04
1784.43	2831.43
1782.85	2682.23
1781.27	2822.27
1779.69	2797.94
1778.1	2791
1776.52	2766.69
1774.94	2736.07
1773.35	2809.64
1771.77	2794.81
1770.18	2761.06
1768.6	2768.32
1767.01	2717.24
1765.43	2798.62
1763.84	2794.84
1762.26	2787.91
1760.67	2763.65
1759.08	2791.39
1757.49	2800.21
1755.91	2764.95
1754.32	2813.13
1752.73	2828.23
1751.14	2818.16
1749.55	2817.53
1747.96	2862.51
1746.37	2805.26
1744.78	2765.33
1743.19	2827.57
1741.6	2781.37
1740.01	2826.31
1738.42	2786.4
1736.83	2722.97
1735.23	2830.68
1733.64	2814.35
1732.05	2821.56
1730.46	2894.67
1728.86	2762.26
1727.27	2797.71
1725.67	2797.08
1724.08	2845.04
1722.48	2916.49
1720.89	2835.93
1719.29	2802.4
1717.69	2914.52
1716.1	2812.09
1714.5	2803.63
1712.9	2881.26
1711.3	2868.09
1709.71	2881.52
1708.11	2913.72
1706.51	2847.39
1704.91	2881.14
1703.31	2838.29
1701.71	2851.71
1700.11	2918.25
1698.51	2919.15
1696.91	2798.25
1695.31	2871
1693.71	2825.09
1692.1	2826.01
1690.5	2822.25
1688.9	2927.68
1687.29	2827.21
1685.69	2860.87
1684.09	2794.76
1682.48	2890.75
1680.88	2877.63
1679.27	2808.44
1677.67	2838.96
1676.06	2828.97
1674.46	2913.94
1672.85	2854.15
1671.24	2827.05
1669.64	2874.63
1668.03	2867.76
1666.42	2826.69
1664.81	2760.76
1663.21	2853.38
1661.6	2922.65
1659.99	2841.21
1658.38	2807.96
1656.77	2870.98
1655.16	2837.73
1653.54	2840.19
1651.93	2915.58
1650.32	2820.29
1648.71	2863.07
1647.1	2915.14
1645.49	2827.67
1643.87	2856.47
1642.26	2832.58
1640.64	2904.75
1639.03	2933.52
1637.42	2850.78
1635.8	2859.42
1634.19	2860.32
1632.57	2851.93
1630.96	2885.32
1629.34	2884.66
1627.72	2831.43
1626.11	2945.19
1624.49	2908.97
1622.87	2866.58
1621.25	2923.1
1619.63	2928.61
1618.01	2918.68
1616.39	2879.41
1614.78	2807.75
1613.16	2885.82
1611.54	2920.64
1609.91	2882.96
1608.29	2927.02
1606.67	2918.64
1605.05	2919.52
1603.43	2969.71
1601.8	3019.88
1600.18	3000.7
1598.56	3027.74
1596.94	3159.46
1595.31	3198.76
1593.69	3241.12
1592.06	3266.54
1590.44	3259.64
1588.81	3209.68
1587.19	3092.09
1585.56	3251.25
1583.93	3112.19
1582.3	3100.72
1580.68	3041.63
1579.05	3013.29
1577.42	3054.06
1575.79	2939.76
1574.16	2994.34
1572.54	2987.51
1570.91	2847.23
1569.28	2927.86
1567.64	2956.33
1566.01	2845.27
1564.38	2864.54
1562.75	2882.27
1561.12	2887.74
1559.49	2827.34
1557.86	2901.72
1556.22	2992.91
1554.59	2917.23
1552.96	2915.02
1551.32	2850.1
1549.69	2782.15
1548.05	2831.97
1546.42	2895.53
1544.78	2827.61
1543.14	2811.68
1541.51	2826.31
1539.87	2839.4
1538.23	2831.11
1536.6	2758.71
1534.96	2762.65
1533.32	2847.47
1531.68	2761.38
1530.04	2809.55
1528.4	2784.5
1526.76	2782.33
1525.12	2831.99
1523.48	2866.38
1521.84	2839.82
1520.2	2828.5
1518.56	2766.94
1516.92	2757.16
1515.27	2879.82
1513.63	2795.45
1511.99	2852.62
1510.34	2763.74
1508.7	2788.95
1507.06	2759.42
1505.41	2734.46
1503.77	2793.09
1502.12	2754.47
1500.47	2790.28
1498.83	2775.97
1497.18	2723.7
1495.54	2718.52
1493.89	2801.35
1492.24	2746.08
1490.59	2730.28
1488.94	2793.34
1487.29	2712.33
1485.64	2731.41
1483.99	2695.92
1482.34	2731.65
1480.69	2746.17
1479.04	2765.21
1477.39	2719.15
1475.74	2732.14
1474.09	2782.96
1472.44	2738.43
1470.78	2686.37
1469.13	2768.92
1467.48	2718.38
1465.82	2655.77
1464.17	2703.51
1462.51	2699.86
1460.86	2815.54
1459.2	2796.76
1457.55	2741.75
1455.89	2724.51
1454.23	2745
1452.58	2670.43
1450.92	2737.69
1449.26	2658.63
1447.6	2736.41
1445.95	2761.39
1444.29	2701.98
1442.63	2731.48
1440.97	2729.33
1439.31	2682.01
1437.65	2696.44
1435.98	2691.29
1434.32	2690.66
1432.66	2729.15
1431	2590.12
1429.34	2682.75
1427.68	2643.03
1426.01	2664.96
1424.35	2710.92
1422.68	2710.28
1421.02	2688.62
1419.36	2742.05
1417.69	2738.4
1416.02	2668.71
1414.36	2633.57
1412.69	2649.46
1411.03	2659.33
1409.36	2718.69
1407.69	2620.6
1406.02	2658.95
1404.35	2695.79
1402.69	2696.65
1401.02	2654.08
1399.35	2645.97
1397.68	2579.47
1396.01	2616.28
1394.34	2624.65
1392.66	2643.47
1390.99	2614.43
1389.32	2640.73
1387.65	2542.94
1385.98	2696.28
1384.3	2619.44
1382.63	2693.51
1380.96	2648.07
1379.28	2593.69
1377.61	2655.77
1375.93	2580.52
1374.26	2551.56
1372.58	2561.4
1370.9	2605.53
1369.23	2551.24
1367.55	2580.45
1365.87	2539.6
1364.2	2516.64
1362.52	2554.78
1360.84	2527.36
1359.16	2522.3
1357.48	2465.13
1355.8	2519.61
1354.12	2527.94
1352.44	2527.34
1350.76	2474.69
1349.08	2560.33
1347.39	2510.67
1345.71	2502.64
1344.03	2457.48
1342.35	2517.79
1340.66	2537.98
1338.98	2433.45
1337.29	2443.26
1335.61	2496.1
1333.93	2434.68
1332.24	2445.96
1330.55	2421.65
1328.87	2438.86
1327.18	2467.93
1325.49	2468.82
1323.81	2426.75
1322.12	2409.87
1320.43	2455.2
1318.74	2405.76
1317.05	2369.66
1315.36	2468.24
1313.67	2478
1311.98	2403.46
1310.29	2395.49
1308.6	2434.83
1306.91	2389.91
1305.22	2412.98
1303.53	2340.01
1301.83	2442.83
1300.14	2400.9
1298.45	2342.75
1296.75	2327.43
1295.06	2408.03